#ID:	3
#type:	Perform parallel JV
#start_time:	16/04/2025 16.48.02
#
# Parameters
#Sample area:	0.25 cm²
#Comment:	  
#Resolution of the measurement unit:	10 (higher better/slower)
#start_voltage:	-0.2 V
#stop_voltage:	1.4 V
#Scan rate:	10 mV/s
#settling_time:	10 ms
#direction:	3 0=forward,1=backward,2=for- & backward,3=back- & forward
##Sample holder climate : temperature:	[21.627,35.187] °C
##Sample holder climate : relative humidity:	[38.428,33.845] %
##IR temperature [0]:	[23.33,46.49] °C
##Stage temperature:	[21.4165,53.7755] °C
##Light intensity:	[100,100] %
#
#voltage (V),current (mA)
1.40098,-0.000957646
1.39685,-0.00113024
1.38158,-0.00101007
1.36697,-0.00119297
1.36697,-0.00104441
1.34273,-0.000893003
1.34257,-0.000929989
1.32836,-0.00111638
1.31846,-0.000936386
1.30907,-0.00102908
1.29888,-0.0007332
1.28927,-0.000803705
1.28002,-0.00104288
1.26986,-0.00091466
1.25534,-0.00109612
1.25115,-0.000672023
1.24095,-0.000974302
1.22627,-0.000704543
1.22171,-0.000956043
1.2074,-0.00102408
1.19755,-0.00100929
1.19264,-0.000950111
1.17782,-0.000867744
1.16846,-0.000859347
1.15897,-0.000775513
1.14929,-0.000805102
1.13917,-0.000971768
1.12974,-0.000668489
1.12027,-0.000825293
1.11042,-0.000933783
1.09589,-0.000977165
1.09118,-0.000927851
1.07674,-0.00079617
1.07108,-0.00119068
1.05693,-0.00104667
1.05216,-0.000913523
1.0376,-0.00093718
1.02744,-0.000812896
1.01798,-0.000795636
1.00894,-0.000806964
0.998648,-0.00080943
0.989273,-0.000672818
0.979088,-0.0012054
0.969339,-0.000892263
0.959625,-0.000738391
0.944863,-0.000739857
0.940012,-0.000875469
0.930862,-0.000799033
0.916219,-0.000876935
0.911179,-0.000674749
0.896506,-0.000819224
0.886519,-0.000862606
0.881818,-0.000687543
0.867407,-0.000832018
0.857795,-0.000762979
0.848031,-0.00060171
0.838114,-0.000860606
0.82814,-0.000696871
0.818536,-0.000467563
0.808816,-0.000698337
0.799319,-0.000750116
0.789645,-0.000821621
0.779939,-0.000749116
0.765462,-0.000745651
0.760725,-0.000856606
0.746132,-0.00067068
0.741033,-0.000609038
0.726811,-0.000608038
0.721673,-0.000844744
0.707054,-0.000715528
0.697569,-0.000673612
0.692407,-0.000910317
0.692479,-0.00046896
0.653593,-0.000624764
0.653692,-0.000782567
0.649113,-0.000724857
0.639316,-0.000594176
0.624806,-0.000713994
0.620211,-0.000667146
0.605244,-0.000895454
0.595552,-0.000754911
0.59081,-0.000666146
0.576301,-0.000615832
0.565793,-0.000693734
0.556067,-0.000819484
0.546755,-0.000754376
0.537188,-0.000640955
0.527501,-0.000565984
0.517533,-0.000792827
0.508091,-0.000816484
0.498992,-0.000592107
0.484353,-0.000837675
0.479992,-0.00105219
0.465416,-0.000661612
0.455965,-0.000839141
0.44614,-0.000539793
0.436747,-0.000589107
0.427086,-0.000602901
0.417739,-0.000634955
0.407944,-0.000574778
0.393258,-0.000648749
0.388418,-0.000568847
0.374091,-0.000827744
0.369172,-0.000940165
0.35486,-0.000661543
0.35024,-0.00077743
0.336158,-0.000879989
0.326117,-0.000787758
0.316525,-0.000491877
0.307303,-0.000924837
0.297485,-0.000646215
0.287879,-0.000558916
0.278109,-0.000480014
0.26874,-0.000705857
0.254022,-0.000683666
0.249113,-0.00062842
0.234613,-0.000783758
0.22536,-0.000575641
0.220684,-0.000726048
0.204789,-0.000510533
0.194898,-0.000887783
0.189373,-0.000739842
0.174391,-0.000674734
0.169678,-0.000440494
0.154963,-0.000683597
0.144767,-0.000726979
0.139386,-0.000450823
0.123851,-0.000693925
0.119298,-0.000642146
0.103246,-0.00063868
0.0988809,-0.000618955
0.0836057,-0.000627818
0.0784433,-0.000356593
0.0683466,-0.000478877
0.0530476,-0.000387646
0.0481051,-0.00036199
0.0376657,-0.000534587
0.027725,-0.000614955
0.0120006,-0.000898508
0.00689985,-0.000493136
-0.00408458,-0.000382181
-0.0132189,-0.000696788
-0.0238059,-0.000484739
-0.033978,-0.000486205
-0.0438997,-0.000671131
-0.0541176,-0.000536984
-0.0648587,-0.000361921
-0.075273,-0.000405303
-0.0848479,-0.000375715
-0.095095,-0.000766758
-0.104841,-0.000416632
-0.114377,-0.000415632
-0.123927,-0.000435357
-0.133006,-0.000555176
-0.143329,-0.000256828
-0.153033,-0.000598558
-0.162513,-0.000630612
-0.176861,-0.000309073
-0.181516,-0.000368249
-0.195282,-0.000682857
-0.200773,-0.00038944
NaN,NaN
-0.199871,-0.000391906
-0.190378,-0.000760293
-0.181151,-0.000592626
-0.171382,-0.000447151
-0.162197,-0.000472808
-0.147846,-0.000466411
-0.142694,-0.000528053
-0.129051,-0.000746033
-0.119187,-0.000817538
-0.110104,-0.000759361
-0.10011,-0.000702651
-0.0902478,-0.000575435
-0.0799777,-0.000568038
-0.070181,-0.000778621
-0.0596267,-0.000463014
-0.0493322,-0.000562641
-0.0391587,-0.000525656
-0.0289094,-0.000435426
-0.0238185,-0.000664734
-0.00881626,-0.000485739
0.00143937,-0.000502999
0.0117282,-0.0006692
0.0215437,-0.000568107
0.0269304,-0.000536053
0.0420591,-0.000396509
0.0515934,-0.000550381
0.0568946,-0.000708185
0.0725351,-0.000788087
0.0823598,-0.000778224
0.0877017,-0.000778224
0.102476,-0.000875386
0.108326,-0.00074717
0.123161,-0.000871454
0.12808,-0.000743239
0.143625,-0.000662871
0.148635,-0.000729445
0.158851,-0.00033347
0.173855,-0.000810347
0.178771,-0.000428166
0.188843,-0.000541587
0.203945,-0.000907508
0.209164,-0.000525328
0.219795,-0.000864126
0.229689,-0.000404043
0.24374,-0.000818278
0.249056,-0.000660474
0.258692,-0.000622023
0.272433,-0.000576175
0.277546,-0.00053919
0.292103,-0.00080895
0.302073,-0.00052293
0.306753,-0.000804018
0.320706,-0.000755705
0.33033,-0.00077643
0.339835,-0.000791224
0.354919,-0.000590038
0.359452,-0.000755239
0.369071,-0.000400181
0.383214,-0.000785827
0.388437,-0.000729116
0.402617,-0.000791758
0.407608,-0.000939699
0.422226,-0.000723719
0.431807,-0.000626092
0.441177,-0.000532396
0.450893,-0.000807087
0.460453,-0.000728185
0.469742,-0.000795758
0.479231,-0.000768636
0.489277,-0.000684803
0.498293,-0.000646352
0.512894,-0.000701597
0.517505,-0.000770636
0.531676,-0.000766705
0.541254,-0.000791361
0.551115,-0.000659215
0.560663,-0.000937837
0.570887,-0.000495014
0.581144,-0.000763773
0.590515,-0.000892989
0.600687,-0.000685871
0.610211,-0.00105179
0.620542,-0.00088166
0.630268,-0.00113909
0.639524,-0.00107005
0.653372,-0.000873798
0.659233,-0.00082695
0.668059,-0.000664215
0.682466,-0.000882195
0.687607,-0.00093644
0.697235,-0.000939905
0.706664,-0.000572519
0.721465,-0.000701734
0.72641,-0.000837347
0.735987,-0.000890126
0.746148,-0.000744651
0.755511,-0.000992219
0.765409,-0.000602641
0.77509,-0.000721994
0.779976,-0.00056419
0.799786,-0.000856141
0.799091,-0.00078217
0.813836,-0.000822621
0.823598,-0.000921248
0.83359,-0.000949371
0.838927,-0.000786636
0.853332,-0.000634764
0.859144,-0.000970096
0.873177,-0.00117575
0.877946,-0.000796033
0.887217,-0.000571656
0.901494,-0.0008784
0.906444,-0.000797033
0.921282,-0.000662421
0.926068,-0.00055393
0.935546,-0.000821224
0.950288,-0.00100962
0.955089,-0.000920851
0.965005,-0.00091592
0.974656,-0.000707337
0.984532,-0.000687612
0.994227,-0.00073546
1.00358,-0.000802033
1.01836,-0.00057619
1.02289,-0.00114083
1.03303,-0.000927317
1.04261,-0.000991425
1.05288,-0.000819827
1.05724,-0.000745857
1.07196,-0.000855347
1.08164,-0.000978631
1.09154,-0.000824293
1.10063,-0.0012188
1.11014,-0.000872141
1.11992,-0.000899263
1.1302,-0.00070794
1.14,-0.00124053
1.14906,-0.000744925
1.15958,-0.00102701
1.17332,-0.000751857
1.17774,-0.000919523
1.19282,-0.000735597
1.19776,-0.00117449
1.21244,-0.000936317
1.22235,-0.00109166
1.2315,-0.000818964
1.24182,-0.000989096
1.251,-0.000849553
1.26054,-0.000918592
1.27056,-0.000973837
1.28012,-0.00094918
1.2945,-0.00120908
1.29943,-0.000868812
1.31344,-0.00103008
1.31809,-0.000911729
1.33312,-0.000823964
1.34255,-0.000811636
1.35235,-0.000938386
1.3622,-0.000605519
1.37248,-0.000830896
1.38203,-0.000613916
1.3918,-0.000923126
1.40607,-0.000587793
NaN,NaN
