#ID:	1
#type:	Perform parallel JV
#start_time:	16/04/2025 17.43.26
#
# Parameters
#Sample area:	0.25 cm²
#Comment:	  
#Resolution of the measurement unit:	10 (higher better/slower)
#start_voltage:	-0.2 V
#stop_voltage:	1.4 V
#Scan rate:	10 mV/s
#settling_time:	10 ms
#direction:	1 0=forward,1=backward,2=for- & backward,3=back- & forward
##Sample holder climate : temperature:	[36.56,32.808] °C
##Sample holder climate : relative humidity:	[29.725,30.803] %
##IR temperature [0]:	[41.29,34.89] °C
##Stage temperature:	[43.1405,33.9076] °C
##Light intensity:	[0,0] %
#
#voltage (V),current (mA)
1.40464,-0.000267255
1.38045,-4.43432E-5
1.39013,-0.00022205
1.38519,-0.00014297
1.38037,-0.000224338
1.37544,-0.000266255
1.37095,-0.000490632
1.36115,-6.0603E-5
1.36116,-0.00035895
1.35136,-0.000181421
1.35112,-0.000378676
1.34168,-0.000306171
1.33683,4.39557E-5
1.33163,2.0391E-6
1.33204,-0.00057493
1.3224,-0.000295308
1.31736,-0.000657764
1.31262,-0.000250926
1.30276,-0.000220338
1.30276,-0.00020801
1.29801,-0.000323897
1.29372,-0.000548274
1.28393,-0.000313034
1.28398,-0.000258789
1.27431,-6.64657E-5
1.2742,-0.000645901
1.26406,-0.000366279
1.25913,-0.000329294
1.25446,-0.000287377
1.25468,-0.000358882
1.24469,-0.000498426
1.23984,-0.0003135
1.23544,-0.000202544
1.22518,-0.00051222
1.22532,-0.000507288
1.22067,-0.000687283
1.21611,-0.000445646
1.20621,-0.000449578
1.20654,-0.000439715
1.19709,-0.000264652
1.19709,-0.000252323
1.18673,-0.000431318
1.18689,-0.000428852
1.17718,-0.000320362
1.17263,-0.000305568
1.16801,-0.000329225
1.16329,-0.000104848
1.15851,-0.000459906
1.15357,-0.000464838
1.14937,-0.00038347
1.13936,-0.000323294
1.13938,-0.000338088
1.1296,-0.000259186
1.12966,-0.000394798
1.12026,-9.79166E-5
1.11547,3.27646E-5
1.11057,-0.000277911
1.11091,-0.000191613
1.10112,-0.000276911
1.09612,-0.000276911
1.09184,-0.000136368
1.08218,-7.15204E-6
1.0818,-0.000327691
1.07725,-0.000206872
1.07196,-0.000226598
1.06285,-0.000279843
1.06239,-0.000188613
1.05297,-0.000506685
1.04862,-0.000567328
1.04349,-0.000222132
1.04352,-0.000165421
1.0341,-0.00023446
1.02921,-0.000383867
1.02433,-9.29166E-5
1.0146,-0.000132368
1.01459,-0.000213735
1.00992,-0.000110176
1.00524,-0.000168353
0.995724,-0.000148627
0.995875,-0.000207804
0.986166,-0.000418852
0.981203,-0.000167353
0.981015,-0.000436112
0.971627,-0.000164887
0.966418,-0.000225529
0.962108,-0.000149093
0.957289,-0.000533739
0.952393,-1.15204E-6
0.947764,-0.000207269
0.94286,-0.000254117
0.938096,-0.00015549
0.928676,-0.000208735
0.92859,-4.84657E-5
0.91919,-6.57255E-5
0.919225,-0.000149559
0.909321,-0.000287637
0.904318,-6.47255E-5
0.899421,-1.78775E-5
0.89946,-0.000224995
0.890163,-0.000121436
0.885312,-0.00015249
0.880536,-0.000142627
0.875367,-0.000130299
0.870424,-0.000137696
0.860423,-0.000412852
0.860171,-0.00035121
0.855218,-0.000136696
0.850417,-0.000316691
0.840298,-0.000273774
0.839977,-0.000456235
0.83496,-0.000261446
0.830218,-0.000152956
0.820518,-0.000351676
0.820526,-0.000433043
0.810686,-0.000142093
0.810697,-0.000147024
0.800499,1.17793E-5
0.795812,-0.000106573
0.790958,-0.000118902
0.790871,-0.000390127
0.780767,-0.000258446
0.775978,-0.000260911
0.771176,-6.85882E-5
0.771235,-2.01477E-6
0.756497,-0.000178544
0.756449,-3.8E-5
0.751319,-6.75882E-5
0.746212,-0.000234255
0.741295,-6.90539E-5
0.736245,-0.000182475
0.731088,-0.000150421
0.72126,-0.000203666
0.721343,-4.3397E-5
0.716344,-8.03823E-5
0.711425,-8.77793E-5
0.701686,-0.000185407
0.701728,-0.000210063
0.691899,-0.000205132
0.692184,0.000186911
0.681802,-6.35882E-5
0.682199,-1.92059E-5
0.671907,0.000133666
0.667256,-0.000269705
0.662492,-0.000348607
0.657483,-0.000180941
0.652628,-0.000220392
0.65277,0.000129735
0.642606,-9.61077E-5
0.632682,-0.000251446
0.632675,4.69018E-5
0.627788,-0.000129627
0.622805,0.000109544
0.617902,-5.07255E-5
0.612789,-0.000297294
0.608248,-0.000160681
0.598019,-0.000274103
0.598328,-2.2603E-5
0.593106,6.12302E-5
0.583198,-7.33823E-5
0.583494,-0.000208995
0.573878,0.00020524
0.573603,-0.000302691
0.563664,4.10391E-5
0.563772,-2.55343E-5
0.553548,-0.000109368
0.549062,-0.000105902
0.544374,-0.000177407
0.53974,-0.000123162
0.535171,-0.000214392
0.530495,2.58818E-6
0.525611,0.000178652
0.520939,1.59166E-5
0.516241,-5.80539E-5
0.506693,-9.65048E-5
0.506871,-2.80886E-6
0.497337,-0.000121162
0.497501,9.58184E-5
0.487614,-0.000191666
0.482953,0.000155995
0.47804,-0.000117696
0.473651,-0.000189201
0.468846,-6.24509E-5
0.463923,-4.27255E-5
0.454604,0.000154529
0.454703,-0.000158613
0.450029,-3.27454E-6
0.440365,-0.000197063
0.440427,-0.000342539
0.43096,-5.65195E-5
0.426054,-0.000109765
0.421287,-0.000114696
0.416819,2.33823E-5
0.412019,-0.00012949
0.407125,-0.000195063
0.402254,-0.000133421
0.397694,4.41077E-5
0.393027,-0.000126024
0.383321,-0.000115162
0.38329,9.19557E-5
0.373999,-2.88627E-5
0.37387,3.19114E-6
0.364309,6.09018E-5
0.359612,-0.000279362
0.354949,3.6245E-5
0.350245,-0.000267034
0.345333,4.46421E-5
0.340788,0.000202446
0.335736,-5.15195E-5
0.326416,-7.7642E-5
0.326324,-3.81911E-5
0.316283,-0.00023298
0.316607,-6.2848E-5
0.307114,-5.93823E-5
0.307279,-0.000219652
0.297776,4.72546E-6
0.293289,-1.5E-5
0.288218,-9.06864E-6
0.283476,-1.64657E-5
0.2787,-1.4E-5
0.268963,0.000107818
0.268787,0.000354387
0.264416,-0.000136284
0.259503,1.65882E-5
0.24898,-0.000256103
0.249187,2.00539E-5
0.238968,1.01911E-5
0.238843,0.000128544
0.228324,0.000164063
0.228815,-0.000173735
0.218244,-8.74361E-5
0.218324,2.35195E-5
0.208139,-1.7397E-5
0.208467,-0.000128353
0.197713,0.000110818
0.197942,9.35586E-5
0.188093,-3.11911E-5
0.183164,7.72989E-5
0.177663,2.30539E-5
0.177606,5.51077E-5
0.167384,-4.74509E-5
0.167392,-7.21077E-5
0.157333,-0.000276759
0.152023,0.000228705
0.147053,-0.000130284
0.147049,0.000348058
0.137124,0.000190255
0.132079,0.000113818
0.126929,-0.00020572
0.121986,-5.77793E-5
0.11683,-0.000225446
0.1167,-8.24361E-5
0.106871,-9.86959E-5
0.101429,-8.63675E-5
0.0964264,9.79409E-6
0.0916254,-9.62302E-5
0.0862679,-5.0848E-5
0.0812414,-6.07107E-5
0.0760907,-1.38627E-5
0.0710645,-3.85195E-5
0.065788,-7.45048E-5
0.0605619,-3.75195E-5
0.0553379,7.59018E-5
0.0501869,7.83675E-5
0.0451758,9.9093E-5
0.0451693,-0.000103093
0.0301936,-0.000317607
0.0308444,-0.00011049
0.0256256,-0.000168666
0.0204031,-2.07255E-5
0.0154613,2.11911E-5
0.00969273,-0.000220446
0.00518021,-0.000179995
-0.00562384,9.86273E-5
-0.00548412,-0.000147941
-0.0104855,-0.000120818
-0.015341,-0.000206117
-0.0203238,-0.000336798
-0.0255606,7.74361E-5
-0.0356748,0.000174598
-0.0359414,-0.000222377
-0.0409799,-0.000133613
-0.0459933,0.000302813
-0.056338,-4.87793E-5
-0.0562249,-2.16568E-5
-0.0609481,-0.000221377
-0.0662423,-7.83675E-5
-0.0764219,-0.000126681
-0.0761251,5.8245E-5
-0.0857055,-0.000210514
-0.0857757,-8.96959E-5
-0.0952366,0.000128284
-0.0950995,-1.96568E-5
-0.104918,0.000335401
-0.109796,-9.79409E-6
-0.114193,5.77793E-5
-0.118791,-1.86568E-5
-0.123478,-6.32841E-6
-0.128305,0.000269828
-0.132907,0.000167269
-0.142491,-0.000165598
-0.142274,-0.00010149
-0.151884,0.000212652
-0.152194,-5.61077E-5
-0.161796,7.95048E-5
-0.165933,2.03284E-5
-0.170675,0.000105162
-0.175359,-0.000143872
-0.180184,-3.04509E-5
-0.185053,0.000110093
-0.189758,7.55734E-5
-0.199638,7.53432E-6
-0.199073,-7.62989E-5
NaN,NaN
