#ID:	4
#type:	Stressing
#start_time:	16/04/2025 17.41.05
#
# Parameters
#Sample area:	0.25 cm²
#Comment:	  
#Resolution of the measurement unit:	10 (higher better/slower)
#wait_duration:	1 min
#point_rate:	2 1/s
#point_spacing:	0 linear
#setpoint:	Inf W
##Sample holder climate : temperature:	[34.779,36.886] °C
##Sample holder climate : relative humidity:	[31.739,30.744] %
##IR temperature [0]:	[44.35,46.49] °C
##Stage temperature:	[51.4341,54.4878] °C
##Light intensity:	[100,100] %
#Power:	-0.00109932 mW
#Current:	-0.000845799 mA
#Voltage:	1.29974 V
#
#time (s),Voltage (V),current (mA),Power (mW),PCE (%)
1.10255,1.45967,-0.000669695,-0.000977534,0.00391014
1.63487,1.41117,-0.000857553,-0.00121015,0.0048406
2.14794,1.36363,-0.000982768,-0.00134014,0.00536054
2.67891,1.31471,-0.000783513,-0.00103009,0.00412038
3.19546,1.33888,-0.000673558,-0.000901812,0.00360725
3.71821,1.32488,-0.000948714,-0.00125694,0.00502775
4.23606,1.31037,-0.00100789,-0.00132071,0.00528284
4.76529,1.29104,-0.000989631,-0.00127765,0.0051106
5.28828,1.30045,-0.00112771,-0.00146653,0.00586612
5.81485,1.30988,-0.00114104,-0.00149462,0.00597848
6.33655,1.32475,-0.000783513,-0.00103796,0.00415184
6.86844,1.31972,-0.00101036,-0.00133338,0.00533354
7.39285,1.31017,-0.00112378,-0.00147234,0.00588936
7.92096,1.30012,-0.00100936,-0.00131228,0.00524913
8.44564,1.30521,-0.000676489,-0.000882957,0.00353183
8.97984,1.30462,-0.000846621,-0.00110452,0.00441808
9.51493,1.30032,-0.000738131,-0.000959803,0.00383921
10.043,1.29992,-0.000876209,-0.001139,0.004556
10.5635,1.3,-0.000839224,-0.00109099,0.00436397
11.0899,1.30048,-0.00075046,-0.000975955,0.00390382
11.6131,1.30002,-0.000876209,-0.00113909,0.00455635
12.1429,1.30055,-0.000871278,-0.00113314,0.00453256
12.654,1.30051,-0.000622244,-0.000809233,0.00323693
13.1784,1.30008,-0.000772651,-0.00100451,0.00401803
13.7043,1.2994,-0.000711009,-0.000923887,0.00369555
14.2261,1.29956,-0.000920592,-0.00119636,0.00478545
14.7494,1.29971,-0.000563068,-0.000731824,0.0029273
15.2811,1.29955,-0.000691283,-0.000898359,0.00359343
15.8047,1.30063,-0.0010562,-0.00137373,0.00549491
16.3311,1.29985,-0.000688818,-0.000895361,0.00358145
16.8528,1.2996,-0.000819499,-0.00106502,0.00426007
17.3712,1.29937,-0.000812102,-0.00105522,0.00422087
17.8937,1.29956,-0.000612381,-0.000795828,0.00318331
18.427,1.29943,-0.000851553,-0.00110654,0.00442614
18.9544,1.29946,-0.000886072,-0.00115142,0.00460566
19.4761,1.29984,-0.000962508,-0.00125111,0.00500442
20.002,1.2996,-0.000844156,-0.00109706,0.00438825
20.521,1.30022,-0.000900866,-0.00117133,0.0046853
21.0544,1.29984,-0.00078991,-0.00102676,0.00410702
21.5858,1.2999,-0.000792376,-0.00103001,0.00412003
22.1134,1.29968,-0.000895935,-0.00116443,0.0046577
22.6406,1.29969,-0.00051622,-0.000670928,0.00268371
23.1488,1.29948,-0.000725803,-0.000943169,0.00377268
23.6731,1.29969,-0.000765254,-0.000994596,0.00397838
24.1899,1.29963,-0.000925523,-0.00120284,0.00481134
24.7203,1.30056,-0.0007332,-0.000953569,0.00381427
25.2457,1.30082,-0.000747994,-0.000973006,0.00389202
25.7795,1.30093,-0.00084169,-0.00109498,0.00437991
26.2986,1.30083,-0.000876209,-0.0011398,0.00455919
26.8312,1.29943,-0.000834293,-0.0010841,0.0043364
27.3588,1.30032,-0.000937851,-0.00121951,0.00487804
27.8827,1.30029,-0.000794842,-0.00103352,0.00413409
28.404,1.30071,-0.00091566,-0.00119101,0.00476404
28.934,1.30064,-0.00107346,-0.00139619,0.00558477
29.4604,1.30074,-0.000802239,-0.0010435,0.004174
29.9799,1.29998,-0.000765254,-0.000994813,0.00397925
30.5029,1.3005,-0.000762788,-0.000992007,0.00396803
31.0242,1.30078,-0.000878675,-0.00114296,0.00457184
31.552,1.30047,-0.000908263,-0.00118117,0.00472468
32.0816,1.29965,-0.000900866,-0.00117081,0.00468324
32.6141,1.30055,-0.00096744,-0.0012582,0.0050328
33.1398,1.30069,-0.000683886,-0.000889521,0.00355808
33.6517,1.30007,-0.000812102,-0.00105579,0.00422314
34.1837,1.29976,-0.000812102,-0.00105554,0.00422216
34.715,1.30066,-0.000797308,-0.00103703,0.00414811
35.2401,1.29958,-0.00116963,-0.00152002,0.00608008
35.7691,1.29964,-0.000821964,-0.00106826,0.00427304
36.2928,1.2994,-0.000622244,-0.000808542,0.00323417
36.8239,1.29939,-0.000669092,-0.000869412,0.00347765
37.3521,1.30009,-0.00100442,-0.00130584,0.00522338
37.8825,1.29971,-0.000945248,-0.00122855,0.0049142
38.4081,1.29919,-0.000812102,-0.00105508,0.0042203
38.9333,1.30052,-0.000927989,-0.00120687,0.00482746
39.4592,1.29955,-0.00117702,-0.0015296,0.00611839
39.9787,1.29977,-0.000940317,-0.0012222,0.0048888
40.4966,1.29983,-0.000784979,-0.00102034,0.00408136
41.0307,1.29975,-0.000799773,-0.0010395,0.00415802
41.5551,1.29995,-0.000910729,-0.0011839,0.0047356
42.0781,1.29943,-0.00110305,-0.00143334,0.00573334
42.6105,1.29935,-0.000775116,-0.00100714,0.00402858
43.1333,1.29948,-0.000804705,-0.0010457,0.00418281
43.6545,1.29965,-0.000984699,-0.00127976,0.00511905
44.1627,1.29951,-0.000644435,-0.000837453,0.00334981
44.6878,1.30003,-0.000612381,-0.000796113,0.00318445
45.2054,1.29925,-0.000755391,-0.000981444,0.00392578
45.7391,1.2993,-0.000856484,-0.00111283,0.00445131
46.2669,1.2993,-0.000661695,-0.00085974,0.00343896
46.7955,1.29948,-0.000812102,-0.00105531,0.00422123
47.3244,1.29923,-0.000821964,-0.00106792,0.00427168
47.841,1.29946,-0.00078991,-0.00102646,0.00410582
48.3705,1.29926,-0.00111291,-0.00144596,0.00578385
48.8913,1.29919,-0.000955111,-0.00124087,0.00496349
49.418,1.29952,-0.000752925,-0.000978441,0.00391376
49.9386,1.29934,-0.000686352,-0.000891805,0.00356722
50.4594,1.29943,-0.0007332,-0.000952741,0.00381096
50.9898,1.29926,-0.000775116,-0.00100708,0.00402833
51.513,1.29933,-0.000812102,-0.00105518,0.00422074
52.0379,1.29952,-0.000777582,-0.00101048,0.00404193
52.574,1.29952,-0.000587725,-0.000763762,0.00305505
53.0968,1.29962,-0.00093292,-0.00121244,0.00484978
53.6175,1.29955,-0.00107346,-0.00139502,0.00558006
54.1394,1.29979,-0.000713474,-0.000927363,0.00370945
54.6522,1.29944,-0.00100936,-0.0013116,0.00524641
55.1555,1.2994,-0.000895935,-0.00116418,0.00465671
55.658,1.29945,-0.000567999,-0.000738084,0.00295234
56.1769,1.29935,-0.000787445,-0.00102317,0.00409268
56.7043,1.29955,-0.000957577,-0.00124442,0.00497766
57.231,1.29904,-0.000898401,-0.00116706,0.00466825
57.7471,1.29927,-0.00069868,-0.000907771,0.00363109
58.273,1.29961,-0.00109319,-0.00142072,0.00568289
58.7938,1.2997,-0.000878675,-0.00114202,0.00456806
59.3073,1.29971,-0.00107593,-0.0013984,0.0055936
59.8386,1.2995,-0.00108826,-0.00141419,0.00565677
60.3666,1.2996,-0.000826896,-0.00107464,0.00429854
60.8968,1.29979,-0.000725803,-0.000943393,0.00377357
61.4198,1.29983,-0.000984699,-0.00127995,0.00511979
