#ID:	3
#type:	Perform parallel JV
#start_time:	16/04/2025 16.48.02
#
# Parameters
#Sample area:	0.25 cm²
#Comment:	  
#Resolution of the measurement unit:	10 (higher better/slower)
#start_voltage:	-0.2 V
#stop_voltage:	1.4 V
#Scan rate:	10 mV/s
#settling_time:	10 ms
#direction:	3 0=forward,1=backward,2=for- & backward,3=back- & forward
##Sample holder climate : temperature:	[21.627,35.187] °C
##Sample holder climate : relative humidity:	[38.428,33.845] %
##IR temperature [0]:	[23.33,46.49] °C
##Stage temperature:	[21.4165,53.7755] °C
##Light intensity:	[100,100] %
#
#voltage (V),current (mA)
1.40822,-0.00100696
1.40298,-0.00108093
1.37862,-0.000800486
1.36866,-0.00110667
1.36918,-0.00119235
1.33971,-0.00091766
1.33961,-0.000954646
1.3296,-0.00104341
1.32007,-0.000948714
1.31034,-0.000882141
1.29548,-0.000905798
1.29068,-0.000940317
1.28066,-0.00107986
1.2656,-0.00130817
1.2606,-0.000898866
1.25133,-0.00102955
1.23605,-0.00122087
1.23131,-0.00105074
1.21653,-0.00103001
1.21211,-0.00125932
1.19757,-0.00100929
1.18782,-0.0010724
1.17755,-0.000941714
1.17274,-0.00115623
1.15807,-0.000664558
1.14866,-0.000791773
1.1389,-0.000774513
1.12909,-0.000938714
1.11936,-0.000825293
1.10954,-0.000613244
1.10038,-0.00117442
1.09034,-0.00102648
1.07611,-0.0010674
1.07112,-0.00115369
1.05641,-0.000911057
1.05138,-0.00104914
1.03673,-0.000986493
1.02701,-0.00104714
1.02215,-0.000807964
1.00736,-0.000930248
0.997822,-0.000821758
0.987771,-0.000919386
0.983087,-0.00093418
0.964156,-0.000878935
0.959046,-0.000886332
0.949075,-0.00101108
0.939238,-0.000850812
0.929891,-0.000737391
0.915378,-0.000790636
0.910249,-0.00051448
0.900504,-0.000523342
0.885507,-0.000468097
0.880962,-0.000650558
0.866384,-0.000696406
0.861367,-0.00067668
0.847119,-0.000626367
0.837519,-0.000848278
0.82802,-0.000844812
0.818012,-0.0008744
0.808555,-0.000932577
0.799002,-0.000836415
0.789232,-0.000956234
0.779332,-0.000823087
0.770019,-0.000721994
0.755124,-0.000659352
0.750298,-0.000782636
0.740832,-0.000867935
0.725989,-0.000817621
0.721517,-0.000783102
0.706642,-0.00093744
0.702055,-0.000858538
0.68751,-0.000625764
0.687226,-0.000825484
0.658003,-0.000932974
0.658351,-0.000955165
0.643145,-0.000687871
0.638594,-0.000877729
0.629167,-0.000677009
0.614323,-0.000494548
0.609861,-0.00077317
0.594912,-0.000779567
0.589919,-0.000690803
0.575999,-0.000936371
0.565971,-0.000706063
0.561336,-0.000511274
0.546831,-0.000951631
0.537174,-0.000456029
0.527763,-0.000701597
0.513439,-0.000755842
0.508584,-0.00076717
0.499102,-0.000863332
0.48441,-0.00107191
0.479837,-0.000941234
0.465754,-0.000772567
0.456383,-0.000617229
0.446436,-0.000712391
0.436985,-0.00056445
0.427439,-0.000528931
0.417814,-0.000474685
0.403453,-0.000698063
0.398493,-0.000451494
0.384208,-0.000729116
0.379792,-0.00077843
0.365541,-0.000853866
0.355962,-0.000476617
0.350733,-0.00046922
0.336809,-0.000916974
0.327255,-0.000763102
0.317605,-0.00070146
0.308223,-0.000628955
0.293065,-0.000744842
0.287857,-0.000484945
0.277723,-0.000418372
0.262465,-0.000409975
0.257458,-0.000597367
0.247135,-0.000431166
0.237156,-0.000598832
0.227333,-0.000563313
0.216918,-0.000541122
0.206963,-0.000448891
0.196968,-0.000702857
0.186918,-0.000837469
0.176332,-0.000662406
0.166616,-0.000747705
0.156093,-0.00089318
0.146228,-0.000677665
0.136175,-0.000734376
0.125803,-0.000718582
0.115877,-0.000827072
0.106253,-0.000503068
0.0957958,-0.000335401
0.0860432,-0.000701788
0.0757094,-0.000615489
0.0702587,-0.000467548
0.0553686,-0.000831469
0.0458502,-0.000337333
0.0356281,-0.000682528
0.0250422,-0.000528656
0.0202973,-0.000713582
0.0050189,-0.000690391
-0.0051419,-0.000567107
-0.015227,-0.000635146
-0.0200926,-0.000731308
-0.0349458,-0.000375249
-0.0445729,-0.000584832
-0.053914,-0.000635612
-0.0636553,-0.000497533
-0.0734588,-0.000208049
-0.0831912,-0.000351058
-0.0928961,-0.000631146
-0.101925,-0.000515259
-0.116605,-0.000477274
-0.12109,-0.00071891
-0.13573,-0.000629146
-0.145202,-0.000417097
-0.154516,-0.000290348
-0.163814,-0.000297745
-0.17362,-0.000420029
-0.183202,-0.000380578
-0.192571,-0.000460945
-0.207076,-0.000451083
NaN,NaN
-0.197237,-0.000453548
-0.192484,-0.000562038
-0.178433,-0.000629612
-0.168854,-0.000485136
-0.159704,-0.000608421
-0.15011,-0.000663666
-0.140759,-0.000577367
-0.130635,-0.000746033
-0.121281,-0.000521656
-0.111675,-0.000881646
-0.102134,-0.000751964
-0.0881382,-0.000809675
-0.0781001,-0.000642009
-0.0733322,-0.00055571
-0.058814,-0.000598626
-0.049574,-0.000439357
-0.0398505,-0.000402372
-0.0304597,-0.000669665
-0.0202819,-0.000640077
-0.0101325,-0.000658337
-2.05702E-5,-0.000355058
0.0100873,-0.000656871
0.020236,-0.000753033
0.0305119,-0.000598695
0.0407624,-0.000569107
0.0506564,-0.000501068
0.0608149,-0.000597229
0.0711038,-0.000812744
0.0812072,-0.000802881
0.085921,-0.000457685
0.106246,-0.000665803
0.106551,-0.000586901
0.121186,-0.000661871
0.131067,-0.000670268
0.141072,-0.000810812
0.151383,-0.00069346
0.156532,-0.000543053
0.171569,-0.000539122
0.181851,-0.000440494
0.191892,-0.000776827
0.197063,-0.000574641
0.21202,-0.000723582
0.222008,-0.0006792
0.227466,-0.000686597
0.242335,-0.000682665
0.252561,-0.000747773
0.257289,-0.000683666
0.272701,-0.000600832
0.282839,-0.000687131
0.287669,-0.00064768
0.303005,-0.000720185
0.307914,-0.000717719
0.322082,-0.000743376
0.33169,-0.000677803
0.336722,-0.000643283
0.35123,-0.000454426
0.360465,-0.000422372
0.374887,-0.000549122
0.379958,-0.000884454
0.389344,-0.000963356
0.398625,-0.00077943
0.413337,-0.000657146
0.417987,-0.00063742
0.432423,-0.000749376
0.441979,-0.000729651
0.451519,-0.000597504
0.461223,-0.00076517
0.465809,-0.000868729
0.480224,-0.000743979
0.489655,-0.000636489
0.504184,-0.000707994
0.508825,-0.000774567
0.518364,-0.000252843
0.532619,-0.000433838
0.537502,-0.000889989
0.551969,-0.0006962
0.561424,-0.000494014
0.566513,-0.00060497
0.585321,-0.000492548
0.585508,-0.00100294
0.60483,-0.000895454
0.609579,-0.00075591
0.619358,-0.0010296
0.633981,-0.00091718
0.638646,-0.00114402
0.653563,-0.000812156
0.658132,-0.000888592
0.668014,-0.000627229
0.682643,-0.00061097
0.687357,-0.000591244
0.697297,-0.000878263
0.706614,-0.000757445
0.721428,-0.000627764
0.726112,-0.00105926
0.735953,-0.00077917
0.745625,-0.000855606
0.754983,-0.000770308
0.76494,-0.000935508
0.774489,-0.000795964
0.784269,-0.000588847
0.794125,-0.000905454
0.80385,-0.000720528
0.81338,-0.000711666
0.82327,-0.000797964
0.828143,-0.000862072
0.846989,-0.000688009
0.847421,-0.000855675
0.861919,-0.000735857
0.871529,-0.000818224
0.881152,-0.000857675
0.886012,-0.000892195
0.900373,-0.000841415
0.910565,-0.000724063
0.915606,-0.000674749
0.930236,-0.000900126
0.934967,-0.000747254
0.944613,-0.000786705
0.959354,-0.000871538
0.964206,-0.00091592
0.973859,-0.000941577
0.988301,-0.000749254
0.993462,-0.000797102
1.0029,-0.00090066
1.01752,-0.001057
1.02205,-0.000906592
1.03229,-0.000914989
1.04194,-0.000917454
1.05144,-0.000967768
1.06101,-0.000758185
1.07138,-0.000978631
1.08049,-0.00083069
1.09018,-0.00102155
1.09984,-0.000885935
1.10933,-0.00114337
1.1192,-0.000665023
1.13364,-0.000868209
1.13864,-0.000944646
1.15289,-0.000893866
1.15795,-0.000928386
1.1726,-0.00102308
1.18262,-0.000956508
1.18759,-0.00104281
1.2024,-0.000878606
1.21188,-0.000825361
1.22155,-0.000697146
1.23165,-0.000732666
1.23674,-0.000853484
1.25596,-0.000985165
1.25564,-0.000881606
1.27589,-0.000813567
1.28081,-0.000961508
1.29035,-0.00106114
1.30502,-0.000634573
1.31029,-0.000882141
1.32026,-0.000936386
1.33465,-0.000848621
1.33946,-0.000417127
1.35431,-0.000790445
1.36423,-0.000630175
1.36906,-0.000743597
1.38362,-0.000613916
1.39333,-0.000935454
1.40296,-0.000624778
NaN,NaN
