#ID:	3
#type:	Perform parallel JV
#start_time:	16/04/2025 17.46.09
#
# Parameters
#Sample area:	0.25 cm²
#Comment:	  
#Resolution of the measurement unit:	10 (higher better/slower)
#start_voltage:	-0.2 V
#stop_voltage:	1.4 V
#Scan rate:	10 mV/s
#settling_time:	10 ms
#direction:	1 0=forward,1=backward,2=for- & backward,3=back- & forward
##Sample holder climate : temperature:	[32.808,29.964] °C
##Sample holder climate : relative humidity:	[30.803,32.155] %
##IR temperature [0]:	[34.89,31.53] °C
##Stage temperature:	[33.9076,30.2538] °C
##Light intensity:	[0,0] %
#
#voltage (V),current (mA)
1.40212,-0.000328897
1.40253,-0.000273419
1.38741,-0.000451181
1.38747,-0.000183038
1.37754,-0.000214475
1.37789,-0.000392004
1.36753,-0.000100054
1.36297,-0.000122245
1.35821,-0.000339225
1.35342,-0.000477303
1.34808,-0.000577396
1.34357,-0.00037521
1.33847,-0.00024946
1.33362,-0.000165627
1.32871,-0.000278049
1.32397,-0.000376676
1.31891,-0.000263255
1.3091,-0.000422524
1.3089,-0.000360882
1.29921,-0.000521151
1.29926,-0.000309103
1.28881,-0.000300705
1.28899,-0.000453578
1.28424,-0.000350019
1.27414,-0.000438784
1.26938,-0.000202078
1.26943,-0.000562068
1.25947,-0.000452578
1.25938,-0.000230666
1.24977,-4.32745E-5
1.2445,-0.000131039
1.23987,-0.000434318
1.23502,-0.000458975
1.22976,-0.000348019
1.22509,-0.000125108
1.22032,-0.000287843
1.21522,-0.000211407
1.21027,-0.000470303
1.20064,-0.000274514
1.2007,-0.000222735
1.19568,-0.000471769
1.19056,-0.000353416
1.18119,-0.000507754
1.18125,-0.000236529
1.1712,-0.000480632
1.1663,-0.000585656
1.16164,-0.000114711
1.16129,-0.000408127
1.15147,-0.000136902
1.14641,-0.000315897
1.14186,-0.000394798
1.1365,-0.000288774
1.13193,-0.000310965
1.12667,-0.00045544
1.12201,-0.000440646
1.11709,-0.000152162
1.11192,-0.000470235
1.10697,-0.00028924
1.10235,-0.000323759
1.09233,-0.000553068
1.09247,-6.48627E-5
1.08256,-0.00027098
1.0829,-0.000307965
1.07305,-0.000278377
1.07314,-0.000566862
1.06338,-0.000339019
1.06338,-0.000163956
1.05375,-0.000489426
1.04898,-0.000338019
1.044,-0.000456372
1.03916,-0.000508151
1.03452,-0.000589519
1.02952,-0.000606778
1.02439,-0.000408524
1.01484,-0.000443043
1.01515,-0.000430715
1.01042,-0.000403593
1.0008,-8.69852E-5
1.00056,-0.000131367
0.990936,0.000139858
0.986226,-0.000204338
0.985748,-8.35195E-5
0.97606,-0.000206804
0.971337,-0.000258583
0.966701,-0.000415387
0.966442,-0.000232926
0.957101,-0.00024772
0.947375,-0.000382333
0.947341,-0.000296034
0.942481,-0.000370004
0.937707,-0.0002985
0.932887,-3.71373E-5
0.923187,-0.00022846
0.923283,-8.05195E-5
0.913562,-0.00040599
0.908682,-0.000562793
0.90869,-0.00026198
0.898752,-6.71911E-5
0.893937,-0.000237323
0.889234,-0.000327553
0.889469,-0.000427181
0.879591,-0.000401524
0.870034,5.46273E-5
0.870205,-0.000384264
0.865389,-0.000124368
0.860409,-0.000161353
0.850685,-0.000257514
0.850769,-0.000257514
0.84071,-0.000219529
0.840695,-3.95343E-5
0.831041,0.000105941
0.830904,-0.000318156
0.821638,-6.48045E-6
0.815868,-0.00013223
0.811503,3.38228E-6
0.811126,-0.000112505
0.801443,0.000226294
0.796539,-0.00011397
0.791551,-0.000175613
0.786609,-0.000189407
0.78169,-0.000189407
0.776598,-0.000127765
0.771688,-0.00018201
0.762065,-0.000314156
0.761703,-0.000311691
0.757054,-0.000343745
0.752068,-0.000208132
0.742042,-0.000130696
0.7422,-0.000214529
0.732463,-9.8642E-5
0.732166,-9.8775E-6
0.722729,-0.000282568
0.717727,0.000114407
0.717722,-7.79166E-5
0.707913,6.6093E-5
0.702891,0.000223897
0.698122,-8.43136E-5
0.693376,3.65048E-5
0.693356,-2.26716E-5
0.678284,3.50391E-5
0.678352,-4.1397E-5
0.673546,0.00032599
0.668583,3.35734E-5
0.663277,0.000102613
0.658431,-0.00017601
0.65364,-6.50539E-5
0.643751,-6.15882E-5
0.643778,-0.000113368
0.633762,-0.000207063
0.633833,6.41616E-5
0.623987,7.25586E-5
0.623967,-4.33284E-5
0.614389,-0.000198666
0.609608,-0.000240583
0.604473,-0.000345607
0.604186,-0.000180407
0.594608,-0.000340676
0.590026,-0.000116299
0.58454,-0.000312553
0.579654,-0.000221323
0.574774,-0.000105436
0.56988,-3.14657E-5
0.564979,-0.000124162
0.555362,-0.000240049
0.555536,3.85734E-5
0.550605,-0.000168544
0.545392,-0.000125627
0.5358,-0.000206995
0.535426,-5.65882E-5
0.52569,-3.3397E-5
0.52587,6.27645E-5
0.515868,-8.27107E-5
0.515747,-0.000201063
0.506043,3.6642E-5
0.50085,-0.000417043
0.496272,5.14361E-5
0.496029,-0.000101436
0.48662,-0.000379058
0.481943,-0.000196598
0.477347,-1.90686E-5
0.467729,0.000164392
0.467515,0.000206308
0.462579,-1.06716E-5
0.452918,-7.97107E-5
0.45324,6.32989E-5
0.443822,-4.91225E-5
0.443403,-4.17255E-5
0.434106,-0.000335142
0.429696,0.000153063
0.424898,1.35195E-5
0.419663,-8.2642E-5
0.41496,-0.000122093
0.410197,-4.31911E-5
0.405778,-0.000291225
0.400586,0.000103284
0.391421,-0.000241911
0.391383,-0.000217255
0.381555,-9.79018E-5
0.381599,4.75734E-5
0.372031,1.55195E-5
0.367202,-0.000156078
0.362324,-8.13727E-6
0.362506,-0.000210323
0.352744,5.35048E-5
0.342954,0.000293676
0.343056,-0.000118093
0.338347,-2.68627E-5
0.333692,0.000227103
0.324079,0.000159063
0.324124,0.000225637
0.314831,0.000289745
0.31466,6.53675E-5
0.304852,-0.000175269
0.304805,-4.45882E-5
0.29557,0.000177323
0.290937,2.93823E-5
0.28639,-0.000361661
0.281431,-0.000285225
0.276857,-0.0002655
0.27165,-2.63284E-5
0.266764,7.57646E-5
0.262416,0.000157132
0.25766,-0.000148613
0.248021,-9.33675E-5
0.247924,-7.11764E-5
0.2384,-6.13136E-5
0.238515,-0.000251171
0.228715,-2.82598E-5
0.223944,-6.5245E-5
0.219079,3.33823E-5
0.214478,-0.000173735
0.209495,-0.000173735
0.204956,0.000103421
0.200474,-0.000180132
0.190199,-9.62989E-5
0.189872,-0.000177666
0.185152,-9E-6
0.180001,-9.77645E-5
0.170126,-0.000127353
0.170333,-0.000139681
0.160341,1.17255E-5
0.160445,3.39166E-5
0.150282,-8.93675E-5
0.145351,8.91616E-5
0.140313,-0.000253568
0.14028,-6.61764E-5
0.130795,-0.00011549
0.12579,-5.2848E-5
0.120526,6.05734E-5
0.115429,-1.09314E-5
0.110791,0.000206049
0.105864,-9.86959E-5
0.101102,2.45882E-5
0.0963133,6.65048E-5
0.0908828,-7.89705E-5
0.0863964,-7.79705E-5
0.081318,-2.61911E-5
0.0714072,-0.000218514
0.0713314,2.80539E-5
0.0617392,0.000107956
0.0613776,7.59018E-5
0.0568324,2.41225E-5
0.046862,1.77255E-5
0.0419344,-0.00012775
0.0419277,1.03284E-5
0.0321288,1.27941E-5
0.0268962,-5.93136E-6
0.0217542,1.62598E-5
0.0221401,-0.000213049
0.0121513,1.87255E-5
0.0072807,-0.000332867
0.00206191,0.000271225
-0.00281864,-0.000271225
-0.00785363,-0.00010849
-0.0129054,-3.35195E-5
-0.0175889,0.00023524
-0.0227661,-4.33823E-5
-0.0273924,-0.000151872
-0.0372229,0.000159804
-0.0375337,-0.000128681
-0.0423368,0.00020172
-0.0523306,0.000109024
-0.0523624,9.42302E-5
-0.0622003,5.47793E-5
-0.0619,0.000301348
-0.0719175,0.000102627
-0.0716797,3.11225E-5
-0.0819865,9.27646E-5
-0.0866847,-7.24361E-5
-0.0865162,8.78332E-5
-0.096809,0.000194858
-0.101457,0.000217049
-0.106435,0.000135681
-0.111122,4.79166E-5
-0.116163,0.000301882
-0.121794,0.000252568
-0.12609,4.05195E-5
-0.135842,0.000191926
-0.136193,-8.66959E-5
-0.140938,7.85048E-5
-0.145205,-0.000155735
-0.155396,-0.000110353
-0.155081,-0.000105421
-0.164891,3.06864E-6
-0.164974,0.000296485
-0.174413,0.000235843
-0.179114,3.11911E-5
-0.183995,0.000430632
-0.188698,0.000216117
-0.193539,0.000222049
-0.198619,-0.000142872
-0.203458,-0.000135475
NaN,NaN
